95-Am-242(n,total fission) ENDF/B-VII.1
1.0E-5,276044.0
1.31241E-5,240964.0
1.70876E-5,211181.0
2.2426E-5,184348.0
2.91987E-5,161565.0
3.83206E-5,141038.0
4.98935E-5,123612.0
6.54808E-5,107911.0
8.52562E-5,94584.7
1.11891E-4,82576.3
1.45682E-4,72382.8
1.91195E-4,63202.3
2.48937E-4,55409.1
3.26707E-4,48387.7
4.25373E-4,42431.7
5.58264E-4,37067.6
7.26861E-4,32520.3
9.53941E-4,28425.9
0.00124203,24954.2
0.00163006,21833.6
0.00212234,19192.0
0.00278538,16820.0
0.00362657,14817.7
0.00475955,13046.9
0.00619694,11534.5
0.00813293,10184.4
0.0105891,9071.38
0.0138972,8070.99
0.0180942,7254.81
0.0234661,6593.72
0.0253,6415.92
0.033204,5873.54
0.0474582,5363.24
0.0678316,5081.6
0.0889513,5020.63
0.128044,5062.73
0.165741,4910.47
0.203051,4375.54
0.284097,2685.27
0.318816,2128.8
0.347948,1783.1
0.381154,1500.74
0.415982,1307.45
0.445756,1209.95
0.485454,1160.25
0.488749,1159.84
0.51605,1176.45
0.593922,1298.9
0.598606,1299.62
0.62671,1264.17
0.66184,1137.1
0.718867,894.488
0.764184,760.113
0.811408,674.963
0.858633,625.209
0.963575,572.815
1.15142,505.542
1.42532,363.872
1.51977,337.5
1.55125,335.64
1.63281,350.764
1.69646,364.179
1.75063,349.576
1.82917,312.559
1.87251,305.491
1.91605,311.648
1.97557,339.061
2.06112,390.124
2.09496,397.022
2.12504,390.355
2.18145,348.241
2.28579,244.036
2.34831,199.32
2.41083,169.767
2.47428,151.399
2.53774,141.704
2.59162,139.085
2.65613,142.6
2.72064,154.621
2.77511,173.688
2.82959,203.564
2.96247,302.116
3.06477,369.529
3.14758,437.083
3.20522,456.241
3.36145,423.253
3.41538,385.775
3.53276,254.076
3.57836,217.331
3.62793,191.685
3.66759,180.474
3.70724,176.593
3.75096,180.682
3.79467,194.579
3.83462,217.78
3.87787,256.682
3.98057,382.897
4.01962,404.363
4.02381,404.779
4.06165,394.751
4.13455,360.144
4.14799,358.685
4.20634,373.316
4.25409,385.467
4.28857,374.933
4.32968,339.577
4.4048,262.458
4.46222,223.135
4.52724,196.103
4.68655,153.509
4.78408,135.095
4.87674,126.826
4.90763,126.485
4.99242,132.446
5.04895,142.851
5.1196,164.328
5.20757,204.129
5.31093,253.001
5.37492,264.607
5.43891,254.401
5.56691,213.095
5.62036,207.278
5.74919,216.911
5.81,231.31
5.91785,273.251
5.94643,276.117
5.99644,264.644
6.21504,146.483
6.27417,121.375
6.30965,110.667
6.35696,101.971
6.39761,99.621
6.43541,101.988
6.47321,109.412
6.51362,123.803
6.60707,172.666
6.64495,182.014
6.64924,182.119
6.67778,177.759
6.77022,138.301
6.87001,111.18
6.91104,98.8318
6.95499,92.0291
7.03697,84.9501
7.09483,77.9601
7.23425,69.8935
7.41407,48.9672
7.47267,44.4454
7.54345,41.3687
7.61424,40.4677
7.68749,41.5209
7.76073,44.5338
7.86165,51.9781
8.00229,65.357
8.0812,68.9267
8.09083,68.9874
8.16897,66.9698
8.28877,61.6464
8.34697,60.8242
8.45973,63.707
8.64401,72.3695
8.95797,80.5104
9.00299,80.7497
9.15606,76.8874
9.27311,74.0039
9.35909,77.8449
9.40833,80.0491
9.45955,77.4711
9.57328,63.2877
9.62989,60.1409
9.66741,59.5508
9.82685,61.3239
9.90501,60.1544
10.0301,53.3781
10.1426,47.2871
10.2004,46.281
10.3042,47.5072
10.3852,47.008
10.4489,48.4948
10.6241,58.3062
10.7416,63.1896
10.8389,70.9114
10.8611,71.417
10.9144,68.4105
10.9955,59.4217
11.052,56.8055
11.106,58.0255
11.2095,66.4407
11.3675,81.8699
11.4187,83.7801
11.4915,80.6414
11.5668,75.5037
11.6,74.9609
11.6495,77.6626
11.699,85.1441
11.8006,105.792
11.8663,110.748
11.8775,110.854
11.9558,107.245
12.1214,87.3233
12.1886,84.4273
12.2542,87.4914
12.3199,97.3978
12.378,112.959
12.4352,135.247
12.5569,193.771
12.6161,209.217
12.6318,210.185
12.691,202.898
12.7951,176.432
12.8473,171.94
12.9138,179.668
13.019,203.22
13.0619,206.469
13.1872,199.385
13.2657,207.424
13.3762,226.037
13.3897,226.269
13.4461,218.555
13.5182,191.433
13.6242,145.229
13.6827,127.809
13.73,119.482
13.8043,114.854
13.9066,111.519
14.0808,89.8151
14.1419,87.3674
14.2228,90.6203
14.4427,113.12
14.5783,118.578
14.6638,115.671
14.7596,103.611
14.884,82.8531
14.9387,76.1883
14.9984,72.3492
15.0283,72.1171
15.1596,77.6808
15.2575,75.0214
15.32,76.8388
15.4033,85.3421
15.5924,112.638
15.6826,118.263
15.6894,118.306
15.78,114.603
15.9159,106.201
15.9353,106.01
16.0486,108.298
16.1868,104.852
16.2715,108.61
16.4995,134.106
16.836,156.98
16.878,157.817
16.969,152.963
17.186,120.056
17.256,113.0
17.3447,110.008
17.4486,110.736
17.5561,106.922
17.6869,100.316
17.7011,100.225
17.7737,100.618
17.85,97.3705
17.9694,85.0561
18.0412,82.0143
18.1226,84.7207
18.232,95.8613
18.386,116.086
18.4942,123.305
18.512,123.574
18.708,120.25
18.7869,123.879
18.863,133.657
19.0813,176.49
19.1958,185.672
19.2175,185.942
19.3126,179.939
19.4783,149.574
19.5549,141.278
19.8229,134.375
19.9613,138.328
20.0387,133.801
20.1825,115.438
20.3149,104.628
20.5008,74.4518
20.5745,67.4891
20.6396,65.3739
20.7128,66.6552
20.8566,75.5394
21.0552,92.3392
21.2564,110.357
21.3992,120.803
21.4539,121.872
21.5329,118.075
21.6636,107.838
21.697,107.513
21.77,108.907
21.8384,105.542
21.9291,97.9454
21.9473,97.6819
22.002,100.262
22.1541,116.055
22.2363,118.603
22.5036,114.92
22.6505,103.139
22.8092,89.264
23.0391,76.8619
23.2847,57.6896
23.4333,50.9061
23.7216,41.7657
24.0079,29.8891
24.1644,25.2742
24.2819,23.2216
24.3699,22.6278
24.438,23.1047
24.496,24.7293
24.5654,28.5625
24.6452,33.0517
24.765,35.6248
24.8234,38.7357
24.9941,52.3609
25.0717,55.5973
25.0949,55.7338
25.2415,52.3086
25.3823,55.5815
25.5215,52.8836
25.6507,54.1767
25.7076,52.831
25.7834,47.4088
25.8954,38.2107
25.96,35.0199
26.0375,33.4599
26.0504,33.4008
26.1474,34.4246
26.2563,38.3063
26.3585,44.7687
26.4532,54.0576
26.5339,65.6116
26.6138,81.7857
26.6953,104.766
26.7944,142.103
26.9162,190.106
26.9911,207.015
27.0335,209.621
27.1246,201.197
27.4145,155.679
27.6364,101.674
27.7212,87.1881
27.7967,79.6658
27.896,76.2323
27.9791,77.9905
28.0899,85.9142
28.2422,104.777
28.4183,127.359
28.5925,142.514
28.7656,163.259
28.8283,164.453
29.0206,159.137
29.1991,144.268
29.2403,143.764
29.368,148.701
29.4411,142.567
29.5461,126.18
29.5779,124.244
29.655,128.001
29.7522,134.838
29.8202,130.797
29.9425,116.534
30.1231,103.3
30.3194,79.6109
30.4239,72.5093
30.5766,65.3824
30.7514,53.5161
30.8362,51.495
30.8504,51.4723
30.9358,51.8477
31.0306,50.0525
31.1649,44.8836
31.2045,44.4011
31.2729,45.4234
31.3786,50.6747
31.4892,56.7461
31.5555,58.1523
31.655,56.0167
31.7756,51.0703
31.8792,49.1685
32.0878,47.159
32.1757,46.3176
32.2852,46.7339
32.3685,45.4998
32.5417,37.0492
32.5991,35.5166
32.6278,35.3451
32.6924,36.3659
32.8322,40.6694
32.853,40.8242
32.9447,39.1887
33.052,36.1663
33.0912,35.7676
33.1811,36.7118
33.3056,41.319
33.5827,57.3907
33.7925,72.9351
33.8525,74.627
34.0,71.9578
34.0827,75.0231
34.1866,80.6124
34.2043,80.757
34.2807,78.0742
34.3864,73.6107
34.4035,73.5671
34.5064,77.3207
34.8049,94.5945
34.9917,114.373
35.0359,115.565
35.1055,114.977
35.1922,119.059
35.307,129.837
35.3338,130.654
35.4104,127.436
35.5416,117.051
35.5662,116.76
35.6316,120.131
35.7542,138.872
35.8495,153.208
35.9258,157.178
36.1603,148.14
36.1781,148.133
36.2786,149.115
36.3824,146.027
36.4812,135.506
36.7354,96.8667
36.8523,84.6948
36.9287,81.5444
36.9557,81.5288
37.09,84.4054
37.2286,81.6061
37.3009,84.6268
37.3954,97.1388
37.5019,111.871
37.567,114.86
37.6963,109.364
37.8982,96.4038
38.1694,70.3566
38.3052,62.0981
38.448,57.0009
38.5786,55.4579
38.7198,57.4512
38.9865,65.193
39.2065,76.735
39.24,77.1404
39.4031,72.3208
39.4424,73.014
39.6029,84.5283
39.6318,84.9328
39.7725,81.4262
39.9363,84.2155
40.0373,80.8956
40.1951,71.0285
40.4016,66.518
40.571,54.4878
40.6447,52.3406
40.6586,52.3278
40.7621,53.3847
40.8406,51.5975
40.9272,47.2142
40.9725,46.151
41.0218,47.3422
41.1626,57.918
41.1989,58.7299
41.3215,56.676
41.4752,60.582
41.6845,57.6606
41.8511,53.9729
42.2412,41.6776
42.3221,41.0333
42.405,42.4033
42.5752,47.9322
42.6062,48.1917
42.677,46.9421
42.7908,40.9288
42.9052,34.4795
42.9806,31.6653
43.0,31.1641
43.0,42.7749
46.5,47.7655
50.75,59.2808
55.0,72.2831
62.5,58.9097
70.0,49.1396
83.6871,45.3615
90.0,43.619
107.598,39.3764
110.0,38.7972
130.0,32.6039
150.0,29.7522
179.329,32.2942
180.0,32.3523
215.195,31.0223
225.0,30.6518
268.994,27.4564
275.0,27.0202
300.0,23.6623
325.0,20.9456
375.0,19.1428
448.324,17.5873
450.0,17.5518
537.989,15.8869
550.0,15.6596
657.542,14.5321
700.0,14.087
836.871,13.7097
900.0,13.5356
1075.98,12.5846
1100.0,12.4548
1300.0,11.5675
1500.0,10.7867
1793.3,9.89347
1800.0,9.87305
2151.95,9.08736
2250.0,8.86848
2689.94,8.15884
2750.0,8.06197
3250.0,7.45464
3750.0,6.97711
4483.24,6.43342
4500.0,6.42099
5379.88,5.93885
5500.0,5.87304
6575.42,5.45846
7000.0,5.29478
8368.71,4.94015
9000.0,4.77658
10759.8,4.46152
11000.0,4.41851
13000.0,4.15497
15000.0,3.95244
17932.9,3.72844
18000.0,3.72332
21519.5,3.53571
22500.0,3.48344
27283.2,3.3088
27283.2,3.34012
30000.0,3.22151
50000.0,2.96938
90000.0,2.8513
100000.0,2.77401
446540.0,2.256
780000.0,1.8819
1000000.0,1.7704
1300000.0,1.7189
1750000.0,1.82345
2050000.0,1.8809
2500000.0,1.8952
3550000.0,1.83135
5200000.0,1.6805
5950000.0,1.7128
6850000.0,1.8931
8050000.0,2.19995
1.05E7,2.4303
1.25E7,2.5213
1.65E7,2.4264
2.0E7,2.2001
